<?xml-model href="http://hl7.org/fhir/STU3/bundle.sch" type="application/xml" schematypens="http://purl.oclc.org/dsdl/schematron"?>
<Bundle xsi:schemaLocation="http://hl7.org/fhir http://hl7.org/fhir/STU3/fhir-all.xsd"
        xmlns:xsi="http://www.w3.org/2001/XMLSchema-instance"
        xmlns="http://hl7.org/fhir">
   <id value="082590da-dd2d-11ee-1979-020000000000"/>
   <type value="searchset"/>
   <total value="3"/>
   <link>
      <relation value="self"/>
      <url value="http://dummy.nictiz.nl/dummyquery"/>
   </link>
   <entry>
      <fullUrl value="https://example.org/fhir/Composition/86dec649-49e2-4a01-be3b-f6a99e2cce25"/>
      <resource>
         <Composition>
            <id value="86dec649-49e2-4a01-be3b-f6a99e2cce25"/>
            <meta>
               <profile value="http://nictiz.nl/fhir/StructureDefinition/gp-EncounterReport"/>
            </meta>
            <text>
               <status value="extensions"/>
               <div xmlns="http://www.w3.org/1999/xhtml">
                  <b>Pneumothorax</b>
                  <table>
                     <caption>Samengestelde informatie. Subject: E. XXX_Zegers. Id: 86dec649-49e2-4a01-be3b-f6a99e2cce25 (urn:oid:2.16.840.1.113883.2.4.3.118.2.8), Status: definitief
<span style="display: block;">Auteur: Lynn L.L.J. Lynn van der Zanden || General</span>
                     </caption>
                     <tbody>
                        <tr>
                           <th>Type</th>
                           <td>
                              <span title="Summarization of encounter note Narrative (67781-5 - LOINC)">Summarization of encounter note Narrative</span>
                           </td>
                        </tr>
                        <tr>
                           <th>Gemaakt</th>
                           <td>00:00:00, 9 oktober 2022</td>
                        </tr>
                        <tr>
                           <th>Contact</th>
                           <td>Contact ID: d2be8fcc-5432-48b6-a1a7-05cd7e37a202 2.16.840.1.113883.2.4.3.118.2.4 (Id: d2be8fcc-5432-48b6-a1a7-05cd7e37a202 (urn:oid:2.16.840.1.113883.2.4.3.118.2.4))</td>
                        </tr>
                        <tr>
                           <th>Gebeurtenis</th>
                           <td>Episode: f1563f9f-b167-4507-939d-f996fa272743 2.16.840.1.113883.2.4.3.118.2.9 (Id: f1563f9f-b167-4507-939d-f996fa272743 (urn:oid:2.16.840.1.113883.2.4.3.118.2.9))</td>
                        </tr>
                     </tbody>
                  </table>
               </div>
            </text>
            <identifier>
               <system value="urn:oid:2.16.840.1.113883.2.4.3.118.2.8"/>
               <value value="86dec649-49e2-4a01-be3b-f6a99e2cce25"/>
            </identifier>
            <status value="final"/>
            <type>
               <coding>
                  <system value="http://loinc.org"/>
                  <code value="67781-5"/>
                  <display value="Summarization of encounter note Narrative"/>
               </coding>
            </type>
            <subject>
               <reference value="urn:uuid:0825a17a-dd2d-11ee-1979-020000000000"/>
               <display value="E. XXX_Zegers"/>
            </subject>
            <encounter>
               <identifier>
                  <system value="urn:oid:2.16.840.1.113883.2.4.3.118.2.4"/>
                  <value value="d2be8fcc-5432-48b6-a1a7-05cd7e37a202"/>
               </identifier>
               <display value="Contact ID: d2be8fcc-5432-48b6-a1a7-05cd7e37a202 2.16.840.1.113883.2.4.3.118.2.4"/>
            </encounter>
            <date value="2022-10-09T00:00:00+02:00"/>
            <author>
               <extension url="http://nictiz.nl/fhir/StructureDefinition/practitionerrole-reference">
                  <valueReference>
                     <reference value="urn:uuid:0825a1a9-dd2d-11ee-1979-020000000000"/>
                     <display value="Lynn L.L.J. Lynn van der Zanden || General"/>
                  </valueReference>
               </extension>
               <reference value="https://example.org/fhir/Practitioner/2.16.528.1.1007.3.1-000138992"/>
               <display value="Lynn L.L.J. Lynn van der Zanden"/>
            </author>
            <title value="Pneumothorax"/>
            <event>
               <detail>
                  <identifier>
                     <system value="urn:oid:2.16.840.1.113883.2.4.3.118.2.9"/>
                     <value value="f1563f9f-b167-4507-939d-f996fa272743"/>
                  </identifier>
                  <display value="Episode: f1563f9f-b167-4507-939d-f996fa272743 2.16.840.1.113883.2.4.3.118.2.9"/>
               </detail>
            </event>
            <section>
               <code>
                  <coding>
                     <system value="http://fhir.nl/fhir/NamingSystem/journaalregeltypen"/>
                     <code value="S"/>
                     <display value="Subjectief"/>
                  </coding>
               </code>
               <text>
                  <status value="generated"/>
                  <div xmlns="http://www.w3.org/1999/xhtml">Klacht/beloop: binnenloper: mw. is een paar weken geleden in ziekenhuis geweest ivm klaplong. Nu erg veel pijn rechter schouderblad (nu 1/4 uur), hetzelfde als bij klaplong. Lukt nu weer om goed door te ademen, dat was straks moeilijker. Geen PODB&#xD;
                                                    Hulpvraag: meteen naar HAP gekomen&#xD;
                                                    Voorgeschiedenis: klaplong&#xD;
                                                    Medicatie: de pil&#xD;
                                                    Algemeen: na klaplong gestopt met roken</div>
               </text>
               <entry>
                  <reference value="urn:uuid:0825aaec-dd2d-11ee-1979-020000000000"/>
                  <display value="S: Subjectief - Klacht/beloop: binnenloper: mw. is een paar weken geleden in ziekenhuis geweest ivm klaplong. Nu erg veel pijn rechter schouderblad (nu 1/4 uur), hetzelfde als bij klaplong. Lukt nu weer om goed door te ademen, dat was straks moeilijker. Geen PODB Hulpvraag: meteen naar HAP gekomen Voorgeschiedenis: klaplong Medicatie: de pil Algemeen: na klaplong gestopt met roken"/>
               </entry>
               <entry>
                  <identifier>
                     <system value="urn:oid:2.16.840.1.113883.2.4.3.118.2.9"/>
                     <value value="f1563f9f-b167-4507-939d-f996fa272743"/>
                  </identifier>
                  <display value="Episode: f1563f9f-b167-4507-939d-f996fa272743 2.16.840.1.113883.2.4.3.118.2.9"/>
               </entry>
            </section>
            <section>
               <code>
                  <coding>
                     <system value="http://fhir.nl/fhir/NamingSystem/journaalregeltypen"/>
                     <code value="O"/>
                     <display value="Objectief"/>
                  </coding>
               </code>
               <text>
                  <status value="generated"/>
                  <div xmlns="http://www.w3.org/1999/xhtml">2 keer een klaplong gehad.  en sinds +- een uurtje pijn die exact het zelfde is als toen,   re zijde, achter schouderblad. &#xD;
                                                    pulm vag , re boven iets crepiteren?  sat 97 % ahf 14  erg  gespannen. p= 100 RR120/70</div>
               </text>
               <entry>
                  <reference value="urn:uuid:0825aaf3-dd2d-11ee-1979-020000000000"/>
                  <display value="O: Objectief - 2 keer een klaplong gehad. en sinds +- een uurtje pijn die exact het zelfde is als toen, re zijde, achter schouderblad. pulm vag , re boven iets crepiteren? sat 97 % ahf 14 erg gespannen. p= 100 RR120/70"/>
               </entry>
               <entry>
                  <identifier>
                     <system value="urn:oid:2.16.840.1.113883.2.4.3.118.2.9"/>
                     <value value="f1563f9f-b167-4507-939d-f996fa272743"/>
                  </identifier>
                  <display value="Episode: f1563f9f-b167-4507-939d-f996fa272743 2.16.840.1.113883.2.4.3.118.2.9"/>
               </entry>
            </section>
            <section>
               <extension url="http://nictiz.nl/fhir/StructureDefinition/code-icpc-1-nl">
                  <valueCodeableConcept>
                     <coding>
                        <system value="http://hl7.org/fhir/sid/icpc-1-nl"/>
                        <code value="R99.04"/>
                        <display value="Pneumothorax"/>
                     </coding>
                  </valueCodeableConcept>
               </extension>
               <code>
                  <coding>
                     <system value="http://fhir.nl/fhir/NamingSystem/journaalregeltypen"/>
                     <code value="E"/>
                     <display value="Evaluatie"/>
                  </coding>
               </code>
               <text>
                  <status value="generated"/>
                  <div xmlns="http://www.w3.org/1999/xhtml">pneumothorax</div>
               </text>
               <entry>
                  <reference value="urn:uuid:0825aafb-dd2d-11ee-1979-020000000000"/>
                  <display value="E: Evaluatie - pneumothorax"/>
               </entry>
               <entry>
                  <identifier>
                     <system value="urn:oid:2.16.840.1.113883.2.4.3.118.2.9"/>
                     <value value="f1563f9f-b167-4507-939d-f996fa272743"/>
                  </identifier>
                  <display value="Episode: f1563f9f-b167-4507-939d-f996fa272743 2.16.840.1.113883.2.4.3.118.2.9"/>
               </entry>
            </section>
            <section>
               <extension url="http://nictiz.nl/fhir/StructureDefinition/code-icpc-1-nl">
                  <valueCodeableConcept>
                     <coding>
                        <system value="http://hl7.org/fhir/sid/icpc-1-nl"/>
                        <code value="R99.04"/>
                        <display value="Pneumothorax"/>
                     </coding>
                  </valueCodeableConcept>
               </extension>
               <code>
                  <coding>
                     <system value="http://fhir.nl/fhir/NamingSystem/journaalregeltypen"/>
                     <code value="E"/>
                     <display value="Evaluatie"/>
                  </coding>
               </code>
               <text>
                  <status value="generated"/>
                  <div xmlns="http://www.w3.org/1999/xhtml">{DD}?</div>
               </text>
               <entry>
                  <reference value="urn:uuid:0825ab12-dd2d-11ee-1979-020000000000"/>
                  <display value="E: Evaluatie - {DD}?"/>
               </entry>
               <entry>
                  <identifier>
                     <system value="urn:oid:2.16.840.1.113883.2.4.3.118.2.9"/>
                     <value value="f1563f9f-b167-4507-939d-f996fa272743"/>
                  </identifier>
                  <display value="Episode: f1563f9f-b167-4507-939d-f996fa272743 2.16.840.1.113883.2.4.3.118.2.9"/>
               </entry>
            </section>
            <section>
               <code>
                  <coding>
                     <system value="http://fhir.nl/fhir/NamingSystem/journaalregeltypen"/>
                     <code value="P"/>
                     <display value="Plan"/>
                  </coding>
               </code>
               <text>
                  <status value="generated"/>
                  <div xmlns="http://www.w3.org/1999/xhtml">iom seh , doorgestuurd voor een X
                                                    Verwijsurgentie: U2
                                                    Verwijsvraag: pneumothorax? / randpneu?</div>
               </text>
               <entry>
                  <reference value="urn:uuid:0825ab29-dd2d-11ee-1979-020000000000"/>
                  <display value="P: Plan - iom seh , doorgestuurd voor een X Verwijsurgentie: U2 Verwijsvraag: pneumothorax? / randpneu?"/>
               </entry>
               <entry>
                  <identifier>
                     <system value="urn:oid:2.16.840.1.113883.2.4.3.118.2.9"/>
                     <value value="f1563f9f-b167-4507-939d-f996fa272743"/>
                  </identifier>
                  <display value="Episode: f1563f9f-b167-4507-939d-f996fa272743 2.16.840.1.113883.2.4.3.118.2.9"/>
               </entry>
            </section>
         </Composition>
      </resource>
      <search>
         <mode value="match"/>
      </search>
   </entry>
   <entry>
      <fullUrl value="https://example.org/fhir/Composition/2.16.840.1.113883.2.4.6.6.90000258.4.1-996625"/>
      <resource>
         <Composition>
            <id value="2.16.840.1.113883.2.4.6.6.90000258.4.1-996625"/>
            <meta>
               <profile value="http://nictiz.nl/fhir/StructureDefinition/gp-EncounterReport"/>
            </meta>
            <text>
               <status value="extensions"/>
               <div xmlns="http://www.w3.org/1999/xhtml">
                  <b>Emfyseem/COPD</b>
                  <table>
                     <caption>Samengestelde informatie. Subject: E. XXX_Zegers. Id: 996625 (urn:oid:2.16.840.1.113883.2.4.6.6.90000258.4.1), Status: definitief
<span style="display: block;">Auteur: Huisarts 1 || Gezondheidscentrum Aesculaap</span>
                     </caption>
                     <tbody>
                        <tr>
                           <th>Type</th>
                           <td>
                              <span title="Summarization of encounter note Narrative (67781-5 - LOINC)">Summarization of encounter note Narrative</span>
                           </td>
                        </tr>
                        <tr>
                           <th>Gemaakt</th>
                           <td>16:45:00, 30 januari 2019</td>
                        </tr>
                        <tr>
                           <th>Contact</th>
                           <td>Contact ID: 996625 2.16.840.1.113883.2.4.6.6.90000258.4.10 (Id: 996625 (urn:oid:2.16.840.1.113883.2.4.6.6.90000258.4.10))</td>
                        </tr>
                        <tr>
                           <th>Gebeurtenis</th>
                           <td>Episode: 1826 2.16.840.1.113883.2.4.6.6.90000258.4.6 (Id: 1826 (urn:oid:2.16.840.1.113883.2.4.6.6.90000258.4.6))</td>
                        </tr>
                     </tbody>
                  </table>
               </div>
            </text>
            <identifier>
               <system value="urn:oid:2.16.840.1.113883.2.4.6.6.90000258.4.1"/>
               <value value="996625"/>
            </identifier>
            <status value="final"/>
            <type>
               <coding>
                  <system value="http://loinc.org"/>
                  <code value="67781-5"/>
                  <display value="Summarization of encounter note Narrative"/>
               </coding>
            </type>
            <subject>
               <reference value="urn:uuid:0825a17a-dd2d-11ee-1979-020000000000"/>
               <display value="E. XXX_Zegers"/>
            </subject>
            <encounter>
               <identifier>
                  <system value="urn:oid:2.16.840.1.113883.2.4.6.6.90000258.4.10"/>
                  <value value="996625"/>
               </identifier>
               <display value="Contact ID: 996625 2.16.840.1.113883.2.4.6.6.90000258.4.10"/>
            </encounter>
            <date value="2019-01-30T16:45:00+01:00"/>
            <author>
               <extension url="http://nictiz.nl/fhir/StructureDefinition/practitionerrole-reference">
                  <valueReference>
                     <reference value="urn:uuid:0825ab39-dd2d-11ee-1979-020000000000"/>
                     <display value="Huisarts 1 || Gezondheidscentrum Aesculaap"/>
                  </valueReference>
               </extension>
               <reference value="https://example.org/fhir/Practitioner/2.16.528.1.1007.3.1-900014718"/>
               <display value="Huisarts 1"/>
            </author>
            <title value="Emfyseem/COPD"/>
            <event>
               <detail>
                  <identifier>
                     <system value="urn:oid:2.16.840.1.113883.2.4.6.6.90000258.4.6"/>
                     <value value="1826"/>
                  </identifier>
                  <display value="Episode: 1826 2.16.840.1.113883.2.4.6.6.90000258.4.6"/>
               </detail>
            </event>
            <section>
               <code>
                  <coding>
                     <system value="http://fhir.nl/fhir/NamingSystem/journaalregeltypen"/>
                     <code value="S"/>
                     <display value="Subjectief"/>
                  </coding>
               </code>
               <text>
                  <status value="generated"/>
                  <div xmlns="http://www.w3.org/1999/xhtml">Gaat beter, nog wel af en toe benauwd/hoesten. Geen koorts, weinig slijm en geen PoB.</div>
               </text>
               <entry>
                  <reference value="urn:uuid:0825ab6e-dd2d-11ee-1979-020000000000"/>
                  <display value="S: Subjectief - Gaat beter, nog wel af en toe benauwd/hoesten. Geen koorts, weinig slijm en geen PoB."/>
               </entry>
               <entry>
                  <identifier>
                     <system value="urn:oid:2.16.840.1.113883.2.4.6.6.90000258.4.6"/>
                     <value value="1826"/>
                  </identifier>
                  <display value="Episode: 1826 2.16.840.1.113883.2.4.6.6.90000258.4.6"/>
               </entry>
            </section>
            <section>
               <code>
                  <coding>
                     <system value="http://fhir.nl/fhir/NamingSystem/journaalregeltypen"/>
                     <code value="O"/>
                     <display value="Objectief"/>
                  </coding>
               </code>
               <text>
                  <status value="generated"/>
                  <div xmlns="http://www.w3.org/1999/xhtml">Longen VAG geen crep, piep, wel wat rhonchi. Percussie gb.</div>
               </text>
               <entry>
                  <reference value="urn:uuid:0825ab75-dd2d-11ee-1979-020000000000"/>
                  <display value="O: Objectief - Longen VAG geen crep, piep, wel wat rhonchi. Percussie gb."/>
               </entry>
               <entry>
                  <identifier>
                     <system value="urn:oid:2.16.840.1.113883.2.4.6.6.90000258.4.6"/>
                     <value value="1826"/>
                  </identifier>
                  <display value="Episode: 1826 2.16.840.1.113883.2.4.6.6.90000258.4.6"/>
               </entry>
            </section>
            <section>
               <extension url="http://nictiz.nl/fhir/StructureDefinition/code-icpc-1-nl">
                  <valueCodeableConcept>
                     <coding>
                        <system value="http://hl7.org/fhir/sid/icpc-1-nl"/>
                        <code value="R95"/>
                        <display value="Emfyseem/COPD"/>
                     </coding>
                  </valueCodeableConcept>
               </extension>
               <code>
                  <coding>
                     <system value="http://fhir.nl/fhir/NamingSystem/journaalregeltypen"/>
                     <code value="E"/>
                     <display value="Evaluatie"/>
                  </coding>
               </code>
               <text>
                  <status value="generated"/>
                  <div xmlns="http://www.w3.org/1999/xhtml">COPD, beterend</div>
               </text>
               <entry>
                  <reference value="urn:uuid:0825ab7d-dd2d-11ee-1979-020000000000"/>
                  <display value="E: Evaluatie - COPD, beterend"/>
               </entry>
               <entry>
                  <identifier>
                     <system value="urn:oid:2.16.840.1.113883.2.4.6.6.90000258.4.6"/>
                     <value value="1826"/>
                  </identifier>
                  <display value="Episode: 1826 2.16.840.1.113883.2.4.6.6.90000258.4.6"/>
               </entry>
            </section>
            <section>
               <code>
                  <coding>
                     <system value="http://fhir.nl/fhir/NamingSystem/journaalregeltypen"/>
                     <code value="P"/>
                     <display value="Plan"/>
                  </coding>
               </code>
               <text>
                  <status value="generated"/>
                  <div xmlns="http://www.w3.org/1999/xhtml">Controle afspreken POH voor ketenzorg en blaastest, continueren flixotide, zn ventolin.</div>
               </text>
               <entry>
                  <reference value="urn:uuid:0825ab94-dd2d-11ee-1979-020000000000"/>
                  <display value="P: Plan - Controle afspreken POH voor ketenzorg en blaastest, continueren flixotide, zn ventolin."/>
               </entry>
               <entry>
                  <identifier>
                     <system value="urn:oid:2.16.840.1.113883.2.4.6.6.90000258.4.6"/>
                     <value value="1826"/>
                  </identifier>
                  <display value="Episode: 1826 2.16.840.1.113883.2.4.6.6.90000258.4.6"/>
               </entry>
            </section>
         </Composition>
      </resource>
      <search>
         <mode value="match"/>
      </search>
   </entry>
   <entry>
      <fullUrl value="https://example.org/fhir/Composition/2.16.840.1.113883.2.4.6.6.90000258.4.1-996626"/>
      <resource>
         <Composition>
            <id value="2.16.840.1.113883.2.4.6.6.90000258.4.1-996626"/>
            <meta>
               <profile value="http://nictiz.nl/fhir/StructureDefinition/gp-EncounterReport"/>
            </meta>
            <text>
               <status value="extensions"/>
               <div xmlns="http://www.w3.org/1999/xhtml">
                  <b>Emfyseem/COPD</b>
                  <table>
                     <caption>Samengestelde informatie. Subject: E. XXX_Zegers. Id: 996626 (urn:oid:2.16.840.1.113883.2.4.6.6.90000258.4.1), Status: definitief
<span style="display: block;">Auteur: Huisarts 1 || Gezondheidscentrum Aesculaap</span>
                     </caption>
                     <tbody>
                        <tr>
                           <th>Type</th>
                           <td>
                              <span title="Summarization of encounter note Narrative (67781-5 - LOINC)">Summarization of encounter note Narrative</span>
                           </td>
                        </tr>
                        <tr>
                           <th>Gemaakt</th>
                           <td>17:03:00, 2 februari 2019</td>
                        </tr>
                        <tr>
                           <th>Contact</th>
                           <td>Contact ID: 996626 2.16.840.1.113883.2.4.6.6.90000258.4.10 (Id: 996626 (urn:oid:2.16.840.1.113883.2.4.6.6.90000258.4.10))</td>
                        </tr>
                        <tr>
                           <th>Gebeurtenis</th>
                           <td>Episode: 1826 2.16.840.1.113883.2.4.6.6.90000258.4.6 (Id: 1826 (urn:oid:2.16.840.1.113883.2.4.6.6.90000258.4.6))</td>
                        </tr>
                     </tbody>
                  </table>
               </div>
            </text>
            <identifier>
               <system value="urn:oid:2.16.840.1.113883.2.4.6.6.90000258.4.1"/>
               <value value="996626"/>
            </identifier>
            <status value="final"/>
            <type>
               <coding>
                  <system value="http://loinc.org"/>
                  <code value="67781-5"/>
                  <display value="Summarization of encounter note Narrative"/>
               </coding>
            </type>
            <subject>
               <reference value="urn:uuid:0825a17a-dd2d-11ee-1979-020000000000"/>
               <display value="E. XXX_Zegers"/>
            </subject>
            <encounter>
               <identifier>
                  <system value="urn:oid:2.16.840.1.113883.2.4.6.6.90000258.4.10"/>
                  <value value="996626"/>
               </identifier>
               <display value="Contact ID: 996626 2.16.840.1.113883.2.4.6.6.90000258.4.10"/>
            </encounter>
            <date value="2019-02-02T17:03:00+01:00"/>
            <author>
               <extension url="http://nictiz.nl/fhir/StructureDefinition/practitionerrole-reference">
                  <valueReference>
                     <reference value="urn:uuid:0825aba4-dd2d-11ee-1979-020000000000"/>
                     <display value="Huisarts 1 || Gezondheidscentrum Aesculaap"/>
                  </valueReference>
               </extension>
               <reference value="https://example.org/fhir/Practitioner/2.16.528.1.1007.3.1-900014718"/>
               <display value="Huisarts 1"/>
            </author>
            <title value="Emfyseem/COPD"/>
            <event>
               <detail>
                  <identifier>
                     <system value="urn:oid:2.16.840.1.113883.2.4.6.6.90000258.4.6"/>
                     <value value="1826"/>
                  </identifier>
                  <display value="Episode: 1826 2.16.840.1.113883.2.4.6.6.90000258.4.6"/>
               </detail>
            </event>
            <section>
               <code>
                  <coding>
                     <system value="http://fhir.nl/fhir/NamingSystem/journaalregeltypen"/>
                     <code value="S"/>
                     <display value="Subjectief"/>
                  </coding>
               </code>
               <text>
                  <status value="generated"/>
                  <div xmlns="http://www.w3.org/1999/xhtml">Gaat slechter. Medicatie slaat niet aan aldus pat. Koorts-. Hoest+++. Slijm geel.</div>
               </text>
               <entry>
                  <reference value="urn:uuid:0825abdc-dd2d-11ee-1979-020000000000"/>
                  <display value="S: Subjectief - Gaat slechter. Medicatie slaat niet aan aldus pat. Koorts-. Hoest+++. Slijm geel."/>
               </entry>
               <entry>
                  <identifier>
                     <system value="urn:oid:2.16.840.1.113883.2.4.6.6.90000258.4.6"/>
                     <value value="1826"/>
                  </identifier>
                  <display value="Episode: 1826 2.16.840.1.113883.2.4.6.6.90000258.4.6"/>
               </entry>
            </section>
            <section>
               <code>
                  <coding>
                     <system value="http://fhir.nl/fhir/NamingSystem/journaalregeltypen"/>
                     <code value="O"/>
                     <display value="Objectief"/>
                  </coding>
               </code>
               <text>
                  <status value="generated"/>
                  <div xmlns="http://www.w3.org/1999/xhtml">Longen VAG crep+, piep iets, rhonchi+.  Percussie gb.</div>
               </text>
               <entry>
                  <reference value="urn:uuid:0825abe3-dd2d-11ee-1979-020000000000"/>
                  <display value="O: Objectief - Longen VAG crep+, piep iets, rhonchi+. Percussie gb."/>
               </entry>
               <entry>
                  <identifier>
                     <system value="urn:oid:2.16.840.1.113883.2.4.6.6.90000258.4.6"/>
                     <value value="1826"/>
                  </identifier>
                  <display value="Episode: 1826 2.16.840.1.113883.2.4.6.6.90000258.4.6"/>
               </entry>
            </section>
            <section>
               <extension url="http://nictiz.nl/fhir/StructureDefinition/code-icpc-1-nl">
                  <valueCodeableConcept>
                     <coding>
                        <system value="http://hl7.org/fhir/sid/icpc-1-nl"/>
                        <code value="R95"/>
                        <display value="Emfyseem/COPD"/>
                     </coding>
                  </valueCodeableConcept>
               </extension>
               <code>
                  <coding>
                     <system value="http://fhir.nl/fhir/NamingSystem/journaalregeltypen"/>
                     <code value="E"/>
                     <display value="Evaluatie"/>
                  </coding>
               </code>
               <text>
                  <status value="generated"/>
                  <div xmlns="http://www.w3.org/1999/xhtml">COPD, exacerbatie</div>
               </text>
               <entry>
                  <reference value="urn:uuid:0825abeb-dd2d-11ee-1979-020000000000"/>
                  <display value="E: Evaluatie - COPD, exacerbatie"/>
               </entry>
               <entry>
                  <identifier>
                     <system value="urn:oid:2.16.840.1.113883.2.4.6.6.90000258.4.6"/>
                     <value value="1826"/>
                  </identifier>
                  <display value="Episode: 1826 2.16.840.1.113883.2.4.6.6.90000258.4.6"/>
               </entry>
            </section>
            <section>
               <code>
                  <coding>
                     <system value="http://fhir.nl/fhir/NamingSystem/journaalregeltypen"/>
                     <code value="P"/>
                     <display value="Plan"/>
                  </coding>
               </code>
               <text>
                  <status value="generated"/>
                  <div xmlns="http://www.w3.org/1999/xhtml">AB starten, ventolin 3-4 dgs.</div>
               </text>
               <entry>
                  <reference value="urn:uuid:0825ac02-dd2d-11ee-1979-020000000000"/>
                  <display value="P: Plan - AB starten, ventolin 3-4 dgs."/>
               </entry>
               <entry>
                  <identifier>
                     <system value="urn:oid:2.16.840.1.113883.2.4.6.6.90000258.4.6"/>
                     <value value="1826"/>
                  </identifier>
                  <display value="Episode: 1826 2.16.840.1.113883.2.4.6.6.90000258.4.6"/>
               </entry>
            </section>
         </Composition>
      </resource>
      <search>
         <mode value="match"/>
      </search>
   </entry>
   <entry>
      <fullUrl value="urn:uuid:0825a17a-dd2d-11ee-1979-020000000000"/>
      <resource>
         <Patient>
            <meta>
               <profile value="http://fhir.nl/fhir/StructureDefinition/nl-core-patient"/>
            </meta>
            <text>
               <status value="extensions"/>
               <div xmlns="http://www.w3.org/1999/xhtml">
                  <div>Id 
<i>afgeschermd (ontbrekend gegeven)</i> (BSN), 
<span title="Naamsamenstelling: Eigennaam">E. XXX_Zegers</span>, Vrouw, 2 augustus 1964</div>
                  <div>Knolweg 1001, 9999XX STITSWERD, NL (officieel Privé (hoofd) Bezoek)</div>
               </div>
            </text>
            <identifier>
               <system value="http://fhir.nl/fhir/NamingSystem/bsn"/>
               <value>
                  <extension url="http://hl7.org/fhir/StructureDefinition/data-absent-reason">
                     <valueCode value="masked"/>
                  </extension>
               </value>
            </identifier>
            <name>
               <extension url="http://hl7.org/fhir/StructureDefinition/humanname-assembly-order">
                  <valueCode value="NL1"/>
               </extension>
               <family value="XXX_Zegers">
                  <extension url="http://hl7.org/fhir/StructureDefinition/humanname-own-name">
                     <valueString value="XXX_Zegers"/>
                  </extension>
               </family>
               <given value="E.">
                  <extension url="http://hl7.org/fhir/StructureDefinition/iso21090-EN-qualifier">
                     <valueCode value="IN"/>
                  </extension>
               </given>
            </name>
            <gender value="female">
               <extension url="http://nictiz.nl/fhir/StructureDefinition/code-specification">
                  <valueCodeableConcept>
                     <coding>
                        <system value="http://hl7.org/fhir/v3/AdministrativeGender"/>
                        <code value="F"/>
                        <display value="vrouw"/>
                     </coding>
                  </valueCodeableConcept>
               </extension>
            </gender>
            <birthDate value="1964-08-02"/>
            <address>
               <extension url="http://nictiz.nl/fhir/StructureDefinition/zib-AddressInformation-AddressType">
                  <valueCodeableConcept>
                     <coding>
                        <system value="http://hl7.org/fhir/v3/AddressUse"/>
                        <code value="HP"/>
                        <display value="Officieel adres"/>
                     </coding>
                  </valueCodeableConcept>
               </extension>
               <extension url="http://fhir.nl/fhir/StructureDefinition/nl-core-address-official">
                  <valueBoolean value="true"/>
               </extension>
               <extension url="http://hl7.org/fhir/StructureDefinition/iso21090-AD-use">
                  <valueCode value="HP"/>
               </extension>
               <use value="home"/>
               <type value="physical"/>
               <line value="Knolweg 1001">
                  <extension url="http://hl7.org/fhir/StructureDefinition/iso21090-ADXP-streetName">
                     <valueString value="Knolweg"/>
                  </extension>
                  <extension url="http://hl7.org/fhir/StructureDefinition/iso21090-ADXP-houseNumber">
                     <valueString value="1001"/>
                  </extension>
               </line>
               <city value="STITSWERD"/>
               <postalCode value="9999XX"/>
               <country value="NL">
                  <extension url="http://nictiz.nl/fhir/StructureDefinition/code-specification">
                     <valueCodeableConcept>
                        <coding>
                           <system value="urn:iso:std:iso:3166"/>
                           <code value="NL"/>
                           <display value="Nederland"/>
                        </coding>
                     </valueCodeableConcept>
                  </extension>
               </country>
            </address>
         </Patient>
      </resource>
      <search>
         <mode value="include"/>
      </search>
   </entry>
   <entry>
      <fullUrl value="https://example.org/fhir/Practitioner/2.16.528.1.1007.3.1-000138992"/>
      <resource>
         <Practitioner>
            <id value="2.16.528.1.1007.3.1-000138992"/>
            <meta>
               <profile value="http://fhir.nl/fhir/StructureDefinition/nl-core-practitioner"/>
            </meta>
            <text>
               <status value="extensions"/>
               <div xmlns="http://www.w3.org/1999/xhtml">
                  <div>Id 000138992 (UZI-NR-PERS), 
<span title="Naamsamenstelling: Eigennaam">Lynn L.L.J. van der Zanden</span> (Lynn)</div>
                  <div>
                     <a href="tel:0620106786">0620106786</a> (Tel Werk)</div>
                  <div>van Dorenborchstraat 1 d, 7203CA ZUTPHEN, NL</div>
               </div>
            </text>
            <identifier>
               <system value="http://fhir.nl/fhir/NamingSystem/uzi-nr-pers"/>
               <value value="000138992"/>
            </identifier>
            <name>
               <extension url="http://hl7.org/fhir/StructureDefinition/humanname-assembly-order">
                  <valueCode value="NL1"/>
               </extension>
               <family value="van der Zanden">
                  <extension url="http://hl7.org/fhir/StructureDefinition/humanname-own-prefix">
                     <valueString value="van der"/>
                  </extension>
                  <extension url="http://hl7.org/fhir/StructureDefinition/humanname-own-name">
                     <valueString value="Zanden"/>
                  </extension>
               </family>
               <given value="Lynn">
                  <extension url="http://hl7.org/fhir/StructureDefinition/iso21090-EN-qualifier">
                     <valueCode value="BR"/>
                  </extension>
               </given>
               <given value="L.L.J.">
                  <extension url="http://hl7.org/fhir/StructureDefinition/iso21090-EN-qualifier">
                     <valueCode value="IN"/>
                  </extension>
               </given>
               <given value="Lynn">
                  <extension url="http://hl7.org/fhir/StructureDefinition/iso21090-EN-qualifier">
                     <valueCode value="CL"/>
                  </extension>
               </given>
            </name>
            <telecom>
               <system value="phone">
                  <extension url="http://nictiz.nl/fhir/StructureDefinition/code-specification">
                     <valueCodeableConcept>
                        <coding>
                           <system value="http://hl7.org/fhir/v3/AddressUse"/>
                           <code value="MC"/>
                           <display value="Mobiele telefoon"/>
                        </coding>
                     </valueCodeableConcept>
                  </extension>
               </system>
               <value value="0620106786"/>
               <use value="work">
                  <extension url="http://nictiz.nl/fhir/StructureDefinition/code-specification">
                     <valueCodeableConcept>
                        <coding>
                           <system value="http://hl7.org/fhir/v3/AddressUse"/>
                           <code value="WP"/>
                           <display value="Work place"/>
                        </coding>
                     </valueCodeableConcept>
                  </extension>
               </use>
            </telecom>
            <address>
               <line value="van Dorenborchstraat 1 d">
                  <extension url="http://hl7.org/fhir/StructureDefinition/iso21090-ADXP-streetName">
                     <valueString value="van Dorenborchstraat"/>
                  </extension>
                  <extension url="http://hl7.org/fhir/StructureDefinition/iso21090-ADXP-houseNumber">
                     <valueString value="1"/>
                  </extension>
                  <extension url="http://hl7.org/fhir/StructureDefinition/iso21090-ADXP-buildingNumberSuffix">
                     <valueString value="d"/>
                  </extension>
               </line>
               <city value="ZUTPHEN"/>
               <postalCode value="7203CA"/>
               <country value="NL">
                  <extension url="http://nictiz.nl/fhir/StructureDefinition/code-specification">
                     <valueCodeableConcept>
                        <coding>
                           <system value="urn:iso:std:iso:3166"/>
                           <code value="NL"/>
                           <display value="Nederland"/>
                        </coding>
                     </valueCodeableConcept>
                  </extension>
               </country>
            </address>
         </Practitioner>
      </resource>
      <search>
         <mode value="include"/>
      </search>
   </entry>
   <entry>
      <fullUrl value="https://example.org/fhir/Practitioner/2.16.528.1.1007.3.1-900014718"/>
      <resource>
         <Practitioner>
            <id value="2.16.528.1.1007.3.1-900014718"/>
            <meta>
               <profile value="http://fhir.nl/fhir/StructureDefinition/nl-core-practitioner"/>
            </meta>
            <text>
               <status value="extensions"/>
               <div xmlns="http://www.w3.org/1999/xhtml">
                  <div>Id 900014718 (UZI-NR-PERS), 
<span title="Naamsamenstelling: Eigennaam">Huisarts 1</span>
                  </div>
                  <div>
                     <a href="tel:030-6963207">030-6963207</a> (Tel Werk), 
<a href="tel:06-12345678">06-12345678</a> (Tel Werk)</div>
               </div>
            </text>
            <identifier>
               <system value="http://fhir.nl/fhir/NamingSystem/uzi-nr-pers"/>
               <value value="900014718"/>
            </identifier>
            <name>
               <extension url="http://hl7.org/fhir/StructureDefinition/humanname-assembly-order">
                  <valueCode value="NL1"/>
               </extension>
               <family value="Huisarts 1">
                  <extension url="http://hl7.org/fhir/StructureDefinition/humanname-own-name">
                     <valueString value="Huisarts 1"/>
                  </extension>
               </family>
            </name>
            <telecom>
               <system value="phone"/>
               <value value="030-6963207"/>
               <use value="work">
                  <extension url="http://nictiz.nl/fhir/StructureDefinition/code-specification">
                     <valueCodeableConcept>
                        <coding>
                           <system value="http://hl7.org/fhir/v3/AddressUse"/>
                           <code value="WP"/>
                           <display value="Work place"/>
                        </coding>
                     </valueCodeableConcept>
                  </extension>
               </use>
            </telecom>
            <telecom>
               <system value="phone">
                  <extension url="http://nictiz.nl/fhir/StructureDefinition/code-specification">
                     <valueCodeableConcept>
                        <coding>
                           <system value="http://hl7.org/fhir/v3/AddressUse"/>
                           <code value="MC"/>
                           <display value="Mobiele telefoon"/>
                        </coding>
                     </valueCodeableConcept>
                  </extension>
               </system>
               <value value="06-12345678"/>
               <use value="work">
                  <extension url="http://nictiz.nl/fhir/StructureDefinition/code-specification">
                     <valueCodeableConcept>
                        <coding>
                           <system value="http://hl7.org/fhir/v3/AddressUse"/>
                           <code value="WP"/>
                           <display value="Work place"/>
                        </coding>
                     </valueCodeableConcept>
                  </extension>
               </use>
            </telecom>
         </Practitioner>
      </resource>
      <search>
         <mode value="include"/>
      </search>
   </entry>
   <entry>
      <fullUrl value="https://example.org/fhir/Organization/2.16.528.1.1007.3.3-90000381"/>
      <resource>
         <Organization>
            <id value="2.16.528.1.1007.3.3-90000381"/>
            <meta>
               <profile value="http://fhir.nl/fhir/StructureDefinition/nl-core-organization"/>
            </meta>
            <text>
               <status value="extensions"/>
               <div xmlns="http://www.w3.org/1999/xhtml">
                  <table>
                     <caption>Organisatie. Id: 90000381 (URA)</caption>
                     <tbody>
                        <tr>
                           <th>Naam</th>
                           <td>Tést Zorginstelling 04</td>
                        </tr>
                     </tbody>
                  </table>
               </div>
            </text>
            <identifier>
               <system value="http://fhir.nl/fhir/NamingSystem/ura"/>
               <value value="90000381"/>
            </identifier>
            <name value="Tést Zorginstelling 04"/>
         </Organization>
      </resource>
      <search>
         <mode value="include"/>
      </search>
   </entry>
   <entry>
      <fullUrl value="https://example.org/fhir/Organization/2.16.528.1.1007.3.3-00058156"/>
      <resource>
         <Organization>
            <id value="2.16.528.1.1007.3.3-00058156"/>
            <meta>
               <profile value="http://fhir.nl/fhir/StructureDefinition/nl-core-organization"/>
            </meta>
            <text>
               <status value="extensions"/>
               <div xmlns="http://www.w3.org/1999/xhtml">
                  <table>
                     <caption>Organisatie. Id: 00058156 (URA)</caption>
                     <tbody>
                        <tr>
                           <th>Naam</th>
                           <td/>
                        </tr>
                        <tr>
                           <th>Type</th>
                           <td>
                              <span title="Huisartspraktijk (zelfstandig of groepspraktijk) (Z3 - organization-type)">Huisartspraktijk (zelfstandig of groepspraktijk)</span>
                           </td>
                        </tr>
                     </tbody>
                  </table>
               </div>
            </text>
            <identifier>
               <system value="http://fhir.nl/fhir/NamingSystem/ura"/>
               <value value="00058156"/>
            </identifier>
            <type>
               <coding>
                  <system value="http://nictiz.nl/fhir/NamingSystem/organization-type"/>
                  <code value="Z3"/>
                  <display value="Huisartspraktijk (zelfstandig of groepspraktijk)"/>
               </coding>
            </type>
         </Organization>
      </resource>
      <search>
         <mode value="include"/>
      </search>
   </entry>
   <entry>
      <fullUrl value="https://example.org/fhir/Organization/2.16.528.1.1007.3.3-00002727"/>
      <resource>
         <Organization>
            <id value="2.16.528.1.1007.3.3-00002727"/>
            <meta>
               <profile value="http://fhir.nl/fhir/StructureDefinition/nl-core-organization"/>
            </meta>
            <text>
               <status value="extensions"/>
               <div xmlns="http://www.w3.org/1999/xhtml">
                  <table>
                     <caption>Organisatie. Id: 00002727 (URA)</caption>
                     <tbody>
                        <tr>
                           <th>Naam</th>
                           <td>Gezondheidscentrum Aesculaap</td>
                        </tr>
                     </tbody>
                  </table>
               </div>
            </text>
            <identifier>
               <system value="http://fhir.nl/fhir/NamingSystem/ura"/>
               <value value="00002727"/>
            </identifier>
            <name value="Gezondheidscentrum Aesculaap"/>
         </Organization>
      </resource>
      <search>
         <mode value="include"/>
      </search>
   </entry>
   <entry>
      <fullUrl value="urn:uuid:0825a1a9-dd2d-11ee-1979-020000000000"/>
      <resource>
         <PractitionerRole>
            <meta>
               <profile value="http://fhir.nl/fhir/StructureDefinition/nl-core-practitionerrole"/>
            </meta>
            <text>
               <status value="extensions"/>
               <div xmlns="http://www.w3.org/1999/xhtml">
                  <table>
                     <caption>Zorgverlenerrol. </caption>
                     <tbody>
                        <tr>
                           <th>Zorgverlener</th>
                           <td>
                              <div>
                                 <a href="https://example.org/fhir/Practitioner/2.16.528.1.1007.3.1-000138992">Lynn L.L.J. Lynn van der Zanden</a>
                              </div>
                              <div>
                                 <a href="https://example.org/fhir/Organization/2.16.528.1.1007.3.3-00058156">Organisatie met id '00058156' in identificerend systeem '2.16.528.1.1007.3.3'.</a>
                              </div>
                           </td>
                        </tr>
                        <tr>
                           <th>Specialisme</th>
                           <td>
                              <span title="General (GENRL - http://fhir.nl/fhir/NamingSystem/uzi-rolcode)">General</span>
                           </td>
                        </tr>
                        <tr>
                           <th>Contactgegevens</th>
                           <td>
                              <a href="tel:0620106786">0620106786</a> (Tel Werk)</td>
                        </tr>
                     </tbody>
                  </table>
               </div>
            </text>
            <practitioner>
               <reference value="https://example.org/fhir/Practitioner/2.16.528.1.1007.3.1-000138992"/>
               <display value="Lynn L.L.J. Lynn van der Zanden"/>
            </practitioner>
            <organization>
               <reference value="https://example.org/fhir/Organization/2.16.528.1.1007.3.3-00058156"/>
               <display value="Organisatie met id '00058156' in identificerend systeem '2.16.528.1.1007.3.3'."/>
            </organization>
            <specialty>
               <coding>
                  <system value="http://fhir.nl/fhir/NamingSystem/uzi-rolcode"/>
                  <code value="GENRL"/>
                  <display value="General"/>
               </coding>
            </specialty>
            <telecom>
               <system value="phone">
                  <extension url="http://nictiz.nl/fhir/StructureDefinition/code-specification">
                     <valueCodeableConcept>
                        <coding>
                           <system value="http://hl7.org/fhir/v3/AddressUse"/>
                           <code value="MC"/>
                           <display value="Mobiele telefoon"/>
                        </coding>
                     </valueCodeableConcept>
                  </extension>
               </system>
               <value value="0620106786"/>
               <use value="work">
                  <extension url="http://nictiz.nl/fhir/StructureDefinition/code-specification">
                     <valueCodeableConcept>
                        <coding>
                           <system value="http://hl7.org/fhir/v3/AddressUse"/>
                           <code value="WP"/>
                           <display value="Work place"/>
                        </coding>
                     </valueCodeableConcept>
                  </extension>
               </use>
            </telecom>
         </PractitionerRole>
      </resource>
      <search>
         <mode value="include"/>
      </search>
   </entry>
   <entry>
      <fullUrl value="urn:uuid:0825ab39-dd2d-11ee-1979-020000000000"/>
      <resource>
         <PractitionerRole>
            <meta>
               <profile value="http://fhir.nl/fhir/StructureDefinition/nl-core-practitionerrole"/>
            </meta>
            <text>
               <status value="extensions"/>
               <div xmlns="http://www.w3.org/1999/xhtml">
                  <table>
                     <caption>Zorgverlenerrol. </caption>
                     <tbody>
                        <tr>
                           <th>Zorgverlener</th>
                           <td>
                              <div>
                                 <a href="https://example.org/fhir/Practitioner/2.16.528.1.1007.3.1-900014718">Huisarts 1</a>
                              </div>
                              <div>
                                 <a href="https://example.org/fhir/Organization/2.16.528.1.1007.3.3-00002727">Gezondheidscentrum Aesculaap</a>
                              </div>
                           </td>
                        </tr>
                        <tr>
                           <th>Contactgegevens</th>
                           <td>
                              <div>
                                 <a href="tel:030-6963207">030-6963207</a> (Tel Werk)</div>
                              <div>
                                 <a href="tel:06-12345678">06-12345678</a> (Tel Werk)</div>
                           </td>
                        </tr>
                     </tbody>
                  </table>
               </div>
            </text>
            <practitioner>
               <reference value="https://example.org/fhir/Practitioner/2.16.528.1.1007.3.1-900014718"/>
               <display value="Huisarts 1"/>
            </practitioner>
            <organization>
               <reference value="https://example.org/fhir/Organization/2.16.528.1.1007.3.3-00002727"/>
               <display value="Gezondheidscentrum Aesculaap"/>
            </organization>
            <telecom>
               <system value="phone"/>
               <value value="030-6963207"/>
               <use value="work">
                  <extension url="http://nictiz.nl/fhir/StructureDefinition/code-specification">
                     <valueCodeableConcept>
                        <coding>
                           <system value="http://hl7.org/fhir/v3/AddressUse"/>
                           <code value="WP"/>
                           <display value="Work place"/>
                        </coding>
                     </valueCodeableConcept>
                  </extension>
               </use>
            </telecom>
            <telecom>
               <system value="phone">
                  <extension url="http://nictiz.nl/fhir/StructureDefinition/code-specification">
                     <valueCodeableConcept>
                        <coding>
                           <system value="http://hl7.org/fhir/v3/AddressUse"/>
                           <code value="MC"/>
                           <display value="Mobiele telefoon"/>
                        </coding>
                     </valueCodeableConcept>
                  </extension>
               </system>
               <value value="06-12345678"/>
               <use value="work">
                  <extension url="http://nictiz.nl/fhir/StructureDefinition/code-specification">
                     <valueCodeableConcept>
                        <coding>
                           <system value="http://hl7.org/fhir/v3/AddressUse"/>
                           <code value="WP"/>
                           <display value="Work place"/>
                        </coding>
                     </valueCodeableConcept>
                  </extension>
               </use>
            </telecom>
         </PractitionerRole>
      </resource>
      <search>
         <mode value="include"/>
      </search>
   </entry>
   <entry>
      <fullUrl value="urn:uuid:0825aba4-dd2d-11ee-1979-020000000000"/>
      <resource>
         <PractitionerRole>
            <meta>
               <profile value="http://fhir.nl/fhir/StructureDefinition/nl-core-practitionerrole"/>
            </meta>
            <text>
               <status value="extensions"/>
               <div xmlns="http://www.w3.org/1999/xhtml">
                  <table>
                     <caption>Zorgverlenerrol. </caption>
                     <tbody>
                        <tr>
                           <th>Zorgverlener</th>
                           <td>
                              <div>
                                 <a href="https://example.org/fhir/Practitioner/2.16.528.1.1007.3.1-900014718">Huisarts 1</a>
                              </div>
                              <div>
                                 <a href="https://example.org/fhir/Organization/2.16.528.1.1007.3.3-00002727">Gezondheidscentrum Aesculaap</a>
                              </div>
                           </td>
                        </tr>
                        <tr>
                           <th>Specialisme</th>
                           <td>
                              <span title="Huisarts (01.015 - http://fhir.nl/fhir/NamingSystem/uzi-rolcode)">Huisarts</span>
                           </td>
                        </tr>
                        <tr>
                           <th>Contactgegevens</th>
                           <td>
                              <div>
                                 <a href="tel:030-6963207">030-6963207</a> (Tel Werk)</div>
                              <div>
                                 <a href="tel:06-12345678">06-12345678</a> (Tel Werk)</div>
                           </td>
                        </tr>
                     </tbody>
                  </table>
               </div>
            </text>
            <practitioner>
               <reference value="https://example.org/fhir/Practitioner/2.16.528.1.1007.3.1-900014718"/>
               <display value="Huisarts 1"/>
            </practitioner>
            <organization>
               <reference value="https://example.org/fhir/Organization/2.16.528.1.1007.3.3-00002727"/>
               <display value="Gezondheidscentrum Aesculaap"/>
            </organization>
            <specialty>
               <coding>
                  <system value="http://fhir.nl/fhir/NamingSystem/uzi-rolcode"/>
                  <code value="01.015"/>
                  <display value="Huisarts"/>
               </coding>
            </specialty>
            <telecom>
               <system value="phone"/>
               <value value="030-6963207"/>
               <use value="work">
                  <extension url="http://nictiz.nl/fhir/StructureDefinition/code-specification">
                     <valueCodeableConcept>
                        <coding>
                           <system value="http://hl7.org/fhir/v3/AddressUse"/>
                           <code value="WP"/>
                           <display value="Work place"/>
                        </coding>
                     </valueCodeableConcept>
                  </extension>
               </use>
            </telecom>
            <telecom>
               <system value="phone">
                  <extension url="http://nictiz.nl/fhir/StructureDefinition/code-specification">
                     <valueCodeableConcept>
                        <coding>
                           <system value="http://hl7.org/fhir/v3/AddressUse"/>
                           <code value="MC"/>
                           <display value="Mobiele telefoon"/>
                        </coding>
                     </valueCodeableConcept>
                  </extension>
               </system>
               <value value="06-12345678"/>
               <use value="work">
                  <extension url="http://nictiz.nl/fhir/StructureDefinition/code-specification">
                     <valueCodeableConcept>
                        <coding>
                           <system value="http://hl7.org/fhir/v3/AddressUse"/>
                           <code value="WP"/>
                           <display value="Work place"/>
                        </coding>
                     </valueCodeableConcept>
                  </extension>
               </use>
            </telecom>
         </PractitionerRole>
      </resource>
      <search>
         <mode value="include"/>
      </search>
   </entry>
   <entry>
      <fullUrl value="urn:uuid:0825aaec-dd2d-11ee-1979-020000000000"/>
      <resource>
         <Observation>
            <meta>
               <profile value="http://nictiz.nl/fhir/StructureDefinition/gp-JournalEntry"/>
            </meta>
            <text>
               <status value="extensions"/>
               <div xmlns="http://www.w3.org/1999/xhtml">
                  <table>
                     <caption>Observatie/bepaling. Subject: E. XXX_Zegers. Status: definitief
<span style="display: block;">Uitvoerende: 
<a href="https://example.org/fhir/Practitioner/2.16.528.1.1007.3.1-000138992">Lynn L.L.J. Lynn van der Zanden</a>
                        </span>
                     </caption>
                     <tbody>
                        <tr>
                           <th>Context</th>
                           <td>Contact ID: d2be8fcc-5432-48b6-a1a7-05cd7e37a202 2.16.840.1.113883.2.4.3.118.2.4 (Id: d2be8fcc-5432-48b6-a1a7-05cd7e37a202 (urn:oid:2.16.840.1.113883.2.4.3.118.2.4))</td>
                        </tr>
                        <tr>
                           <th>Code</th>
                           <th>Waarde</th>
                        </tr>
                        <tr>
                           <td>
                              <span title="Subjectief (S - http://fhir.nl/fhir/NamingSystem/journaalregeltypen)">Subjectief</span>
                           </td>
                           <td>Klacht/beloop: binnenloper: mw. is een paar weken geleden in ziekenhuis geweest ivm klaplong. Nu erg veel pijn rechter schouderblad (nu 1/4 uur), hetzelfde als bij klaplong. Lukt nu weer om goed door te ademen, dat was straks moeilijker. Geen PODB&#xD;
                                                    Hulpvraag: meteen naar HAP gekomen&#xD;
                                                    Voorgeschiedenis: klaplong&#xD;
                                                    Medicatie: de pil&#xD;
                                                    Algemeen: na klaplong gestopt met roken</td>
                        </tr>
                     </tbody>
                  </table>
               </div>
            </text>
            <status value="final"/>
            <code>
               <coding>
                  <system value="http://fhir.nl/fhir/NamingSystem/journaalregeltypen"/>
                  <code value="S"/>
                  <display value="Subjectief"/>
               </coding>
            </code>
            <subject>
               <reference value="urn:uuid:0825a17a-dd2d-11ee-1979-020000000000"/>
               <display value="E. XXX_Zegers"/>
            </subject>
            <context>
               <identifier>
                  <system value="urn:oid:2.16.840.1.113883.2.4.3.118.2.4"/>
                  <value value="d2be8fcc-5432-48b6-a1a7-05cd7e37a202"/>
               </identifier>
               <display value="Contact ID: d2be8fcc-5432-48b6-a1a7-05cd7e37a202 2.16.840.1.113883.2.4.3.118.2.4"/>
            </context>
            <performer>
               <reference value="https://example.org/fhir/Practitioner/2.16.528.1.1007.3.1-000138992"/>
               <display value="Lynn L.L.J. Lynn van der Zanden"/>
            </performer>
            <valueString value="Klacht/beloop: binnenloper: mw. is een paar weken geleden in ziekenhuis geweest ivm klaplong. Nu erg veel pijn rechter schouderblad (nu 1/4 uur), hetzelfde als bij klaplong. Lukt nu weer om goed door te ademen, dat was straks moeilijker. Geen PODB&#xD;&#xA;                                                    Hulpvraag: meteen naar HAP gekomen&#xD;&#xA;                                                    Voorgeschiedenis: klaplong&#xD;&#xA;                                                    Medicatie: de pil&#xD;&#xA;                                                    Algemeen: na klaplong gestopt met roken"/>
         </Observation>
      </resource>
      <search>
         <mode value="include"/>
      </search>
   </entry>
   <entry>
      <fullUrl value="urn:uuid:0825aaf3-dd2d-11ee-1979-020000000000"/>
      <resource>
         <Observation>
            <meta>
               <profile value="http://nictiz.nl/fhir/StructureDefinition/gp-JournalEntry"/>
            </meta>
            <text>
               <status value="extensions"/>
               <div xmlns="http://www.w3.org/1999/xhtml">
                  <table>
                     <caption>Observatie/bepaling. Subject: E. XXX_Zegers. Status: definitief
<span style="display: block;">Uitvoerende: 
<a href="https://example.org/fhir/Practitioner/2.16.528.1.1007.3.1-000138992">Lynn L.L.J. Lynn van der Zanden</a>
                        </span>
                     </caption>
                     <tbody>
                        <tr>
                           <th>Context</th>
                           <td>Contact ID: d2be8fcc-5432-48b6-a1a7-05cd7e37a202 2.16.840.1.113883.2.4.3.118.2.4 (Id: d2be8fcc-5432-48b6-a1a7-05cd7e37a202 (urn:oid:2.16.840.1.113883.2.4.3.118.2.4))</td>
                        </tr>
                        <tr>
                           <th>Code</th>
                           <th>Waarde</th>
                        </tr>
                        <tr>
                           <td>
                              <span title="Objectief (O - http://fhir.nl/fhir/NamingSystem/journaalregeltypen)">Objectief</span>
                           </td>
                           <td>2 keer een klaplong gehad.  en sinds +- een uurtje pijn die exact het zelfde is als toen,   re zijde, achter schouderblad. &#xD;
                                                    pulm vag , re boven iets crepiteren?  sat 97 % ahf 14  erg  gespannen. p= 100 RR120/70</td>
                        </tr>
                     </tbody>
                  </table>
               </div>
            </text>
            <status value="final"/>
            <code>
               <coding>
                  <system value="http://fhir.nl/fhir/NamingSystem/journaalregeltypen"/>
                  <code value="O"/>
                  <display value="Objectief"/>
               </coding>
            </code>
            <subject>
               <reference value="urn:uuid:0825a17a-dd2d-11ee-1979-020000000000"/>
               <display value="E. XXX_Zegers"/>
            </subject>
            <context>
               <identifier>
                  <system value="urn:oid:2.16.840.1.113883.2.4.3.118.2.4"/>
                  <value value="d2be8fcc-5432-48b6-a1a7-05cd7e37a202"/>
               </identifier>
               <display value="Contact ID: d2be8fcc-5432-48b6-a1a7-05cd7e37a202 2.16.840.1.113883.2.4.3.118.2.4"/>
            </context>
            <performer>
               <reference value="https://example.org/fhir/Practitioner/2.16.528.1.1007.3.1-000138992"/>
               <display value="Lynn L.L.J. Lynn van der Zanden"/>
            </performer>
            <valueString value="2 keer een klaplong gehad.  en sinds +- een uurtje pijn die exact het zelfde is als toen,   re zijde, achter schouderblad. &#xD;&#xA;                                                    pulm vag , re boven iets crepiteren?  sat 97 % ahf 14  erg  gespannen. p= 100 RR120/70"/>
         </Observation>
      </resource>
      <search>
         <mode value="include"/>
      </search>
   </entry>
   <entry>
      <fullUrl value="urn:uuid:0825aafb-dd2d-11ee-1979-020000000000"/>
      <resource>
         <Observation>
            <meta>
               <profile value="http://nictiz.nl/fhir/StructureDefinition/gp-JournalEntry"/>
            </meta>
            <text>
               <status value="extensions"/>
               <div xmlns="http://www.w3.org/1999/xhtml">
                  <table>
                     <caption>Observatie/bepaling. Subject: E. XXX_Zegers. Status: definitief
<span style="display: block;">Uitvoerende: 
<a href="https://example.org/fhir/Practitioner/2.16.528.1.1007.3.1-000138992">Lynn L.L.J. Lynn van der Zanden</a>
                        </span>
                     </caption>
                     <tbody>
                        <tr>
                           <th>Context</th>
                           <td>Contact ID: d2be8fcc-5432-48b6-a1a7-05cd7e37a202 2.16.840.1.113883.2.4.3.118.2.4 (Id: d2be8fcc-5432-48b6-a1a7-05cd7e37a202 (urn:oid:2.16.840.1.113883.2.4.3.118.2.4))</td>
                        </tr>
                        <tr>
                           <th>Code</th>
                           <th>Waarde</th>
                        </tr>
                        <tr>
                           <td>
                              <span title="Evaluatie (E - http://fhir.nl/fhir/NamingSystem/journaalregeltypen)">Evaluatie</span>
                           </td>
                           <td>pneumothorax</td>
                        </tr>
                        <tr>
                           <td>
                              <span title="discharge diagnosis (DISDX - v3/ActCode)">discharge diagnosis</span>
                           </td>
                           <td>
                              <span title="Pneumothorax (R99.04 - sid/icpc-1-nl)">Pneumothorax</span>
                           </td>
                        </tr>
                     </tbody>
                  </table>
               </div>
            </text>
            <status value="final"/>
            <code>
               <coding>
                  <system value="http://fhir.nl/fhir/NamingSystem/journaalregeltypen"/>
                  <code value="E"/>
                  <display value="Evaluatie"/>
               </coding>
            </code>
            <subject>
               <reference value="urn:uuid:0825a17a-dd2d-11ee-1979-020000000000"/>
               <display value="E. XXX_Zegers"/>
            </subject>
            <context>
               <identifier>
                  <system value="urn:oid:2.16.840.1.113883.2.4.3.118.2.4"/>
                  <value value="d2be8fcc-5432-48b6-a1a7-05cd7e37a202"/>
               </identifier>
               <display value="Contact ID: d2be8fcc-5432-48b6-a1a7-05cd7e37a202 2.16.840.1.113883.2.4.3.118.2.4"/>
            </context>
            <performer>
               <reference value="https://example.org/fhir/Practitioner/2.16.528.1.1007.3.1-000138992"/>
               <display value="Lynn L.L.J. Lynn van der Zanden"/>
            </performer>
            <valueString value="pneumothorax"/>
            <component>
               <code>
                  <coding>
                     <system value="http://hl7.org/fhir/v3/ActCode"/>
                     <code value="DISDX"/>
                     <display value="discharge diagnosis"/>
                  </coding>
               </code>
               <valueCodeableConcept>
                  <coding>
                     <system value="http://hl7.org/fhir/sid/icpc-1-nl"/>
                     <code value="R99.04"/>
                     <display value="Pneumothorax"/>
                  </coding>
               </valueCodeableConcept>
            </component>
         </Observation>
      </resource>
      <search>
         <mode value="include"/>
      </search>
   </entry>
   <entry>
      <fullUrl value="urn:uuid:0825ab12-dd2d-11ee-1979-020000000000"/>
      <resource>
         <Observation>
            <meta>
               <profile value="http://nictiz.nl/fhir/StructureDefinition/gp-JournalEntry"/>
            </meta>
            <text>
               <status value="extensions"/>
               <div xmlns="http://www.w3.org/1999/xhtml">
                  <table>
                     <caption>Observatie/bepaling. Subject: E. XXX_Zegers. Status: definitief
<span style="display: block;">Uitvoerende: 
<a href="https://example.org/fhir/Practitioner/2.16.528.1.1007.3.1-000138992">Lynn L.L.J. Lynn van der Zanden</a>
                        </span>
                     </caption>
                     <tbody>
                        <tr>
                           <th>Context</th>
                           <td>Contact ID: d2be8fcc-5432-48b6-a1a7-05cd7e37a202 2.16.840.1.113883.2.4.3.118.2.4 (Id: d2be8fcc-5432-48b6-a1a7-05cd7e37a202 (urn:oid:2.16.840.1.113883.2.4.3.118.2.4))</td>
                        </tr>
                        <tr>
                           <th>Code</th>
                           <th>Waarde</th>
                        </tr>
                        <tr>
                           <td>
                              <span title="Evaluatie (E - http://fhir.nl/fhir/NamingSystem/journaalregeltypen)">Evaluatie</span>
                           </td>
                           <td>{DD}?</td>
                        </tr>
                        <tr>
                           <td>
                              <span title="discharge diagnosis (DISDX - v3/ActCode)">discharge diagnosis</span>
                           </td>
                           <td>
                              <span title="Pneumothorax (R99.04 - sid/icpc-1-nl)">Pneumothorax</span>
                           </td>
                        </tr>
                     </tbody>
                  </table>
               </div>
            </text>
            <status value="final"/>
            <code>
               <coding>
                  <system value="http://fhir.nl/fhir/NamingSystem/journaalregeltypen"/>
                  <code value="E"/>
                  <display value="Evaluatie"/>
               </coding>
            </code>
            <subject>
               <reference value="urn:uuid:0825a17a-dd2d-11ee-1979-020000000000"/>
               <display value="E. XXX_Zegers"/>
            </subject>
            <context>
               <identifier>
                  <system value="urn:oid:2.16.840.1.113883.2.4.3.118.2.4"/>
                  <value value="d2be8fcc-5432-48b6-a1a7-05cd7e37a202"/>
               </identifier>
               <display value="Contact ID: d2be8fcc-5432-48b6-a1a7-05cd7e37a202 2.16.840.1.113883.2.4.3.118.2.4"/>
            </context>
            <performer>
               <reference value="https://example.org/fhir/Practitioner/2.16.528.1.1007.3.1-000138992"/>
               <display value="Lynn L.L.J. Lynn van der Zanden"/>
            </performer>
            <valueString value="{DD}?"/>
            <component>
               <code>
                  <coding>
                     <system value="http://hl7.org/fhir/v3/ActCode"/>
                     <code value="DISDX"/>
                     <display value="discharge diagnosis"/>
                  </coding>
               </code>
               <valueCodeableConcept>
                  <coding>
                     <system value="http://hl7.org/fhir/sid/icpc-1-nl"/>
                     <code value="R99.04"/>
                     <display value="Pneumothorax"/>
                  </coding>
               </valueCodeableConcept>
            </component>
         </Observation>
      </resource>
      <search>
         <mode value="include"/>
      </search>
   </entry>
   <entry>
      <fullUrl value="urn:uuid:0825ab29-dd2d-11ee-1979-020000000000"/>
      <resource>
         <Observation>
            <meta>
               <profile value="http://nictiz.nl/fhir/StructureDefinition/gp-JournalEntry"/>
            </meta>
            <text>
               <status value="extensions"/>
               <div xmlns="http://www.w3.org/1999/xhtml">
                  <table>
                     <caption>Observatie/bepaling. Subject: E. XXX_Zegers. Status: definitief
<span style="display: block;">Uitvoerende: 
<a href="https://example.org/fhir/Practitioner/2.16.528.1.1007.3.1-000138992">Lynn L.L.J. Lynn van der Zanden</a>
                        </span>
                     </caption>
                     <tbody>
                        <tr>
                           <th>Context</th>
                           <td>Contact ID: d2be8fcc-5432-48b6-a1a7-05cd7e37a202 2.16.840.1.113883.2.4.3.118.2.4 (Id: d2be8fcc-5432-48b6-a1a7-05cd7e37a202 (urn:oid:2.16.840.1.113883.2.4.3.118.2.4))</td>
                        </tr>
                        <tr>
                           <th>Code</th>
                           <th>Waarde</th>
                        </tr>
                        <tr>
                           <td>
                              <span title="Plan (P - http://fhir.nl/fhir/NamingSystem/journaalregeltypen)">Plan</span>
                           </td>
                           <td>iom seh , doorgestuurd voor een X
                                                    Verwijsurgentie: U2
                                                    Verwijsvraag: pneumothorax? / randpneu?</td>
                        </tr>
                     </tbody>
                  </table>
               </div>
            </text>
            <status value="final"/>
            <code>
               <coding>
                  <system value="http://fhir.nl/fhir/NamingSystem/journaalregeltypen"/>
                  <code value="P"/>
                  <display value="Plan"/>
               </coding>
            </code>
            <subject>
               <reference value="urn:uuid:0825a17a-dd2d-11ee-1979-020000000000"/>
               <display value="E. XXX_Zegers"/>
            </subject>
            <context>
               <identifier>
                  <system value="urn:oid:2.16.840.1.113883.2.4.3.118.2.4"/>
                  <value value="d2be8fcc-5432-48b6-a1a7-05cd7e37a202"/>
               </identifier>
               <display value="Contact ID: d2be8fcc-5432-48b6-a1a7-05cd7e37a202 2.16.840.1.113883.2.4.3.118.2.4"/>
            </context>
            <performer>
               <reference value="https://example.org/fhir/Practitioner/2.16.528.1.1007.3.1-000138992"/>
               <display value="Lynn L.L.J. Lynn van der Zanden"/>
            </performer>
            <valueString value="iom seh , doorgestuurd voor een X&#xA;                                                    Verwijsurgentie: U2&#xA;                                                    Verwijsvraag: pneumothorax? / randpneu?"/>
         </Observation>
      </resource>
      <search>
         <mode value="include"/>
      </search>
   </entry>
   <entry>
      <fullUrl value="urn:uuid:0825ab6e-dd2d-11ee-1979-020000000000"/>
      <resource>
         <Observation>
            <meta>
               <profile value="http://nictiz.nl/fhir/StructureDefinition/gp-JournalEntry"/>
            </meta>
            <text>
               <status value="extensions"/>
               <div xmlns="http://www.w3.org/1999/xhtml">
                  <table>
                     <caption>Observatie/bepaling. Subject: E. XXX_Zegers. Status: definitief
<span style="display: block;">Uitvoerende: 
<a href="https://example.org/fhir/Practitioner/2.16.528.1.1007.3.1-900014718">Huisarts 1</a>
                        </span>
                     </caption>
                     <tbody>
                        <tr>
                           <th>Context</th>
                           <td>Contact ID: 996625 2.16.840.1.113883.2.4.6.6.90000258.4.10 (Id: 996625 (urn:oid:2.16.840.1.113883.2.4.6.6.90000258.4.10))</td>
                        </tr>
                        <tr>
                           <th>Code</th>
                           <th>Waarde</th>
                        </tr>
                        <tr>
                           <td>
                              <span title="Subjectief (S - http://fhir.nl/fhir/NamingSystem/journaalregeltypen)">Subjectief</span>
                           </td>
                           <td>Gaat beter, nog wel af en toe benauwd/hoesten. Geen koorts, weinig slijm en geen PoB.</td>
                        </tr>
                     </tbody>
                  </table>
               </div>
            </text>
            <status value="final"/>
            <code>
               <coding>
                  <system value="http://fhir.nl/fhir/NamingSystem/journaalregeltypen"/>
                  <code value="S"/>
                  <display value="Subjectief"/>
               </coding>
            </code>
            <subject>
               <reference value="urn:uuid:0825a17a-dd2d-11ee-1979-020000000000"/>
               <display value="E. XXX_Zegers"/>
            </subject>
            <context>
               <identifier>
                  <system value="urn:oid:2.16.840.1.113883.2.4.6.6.90000258.4.10"/>
                  <value value="996625"/>
               </identifier>
               <display value="Contact ID: 996625 2.16.840.1.113883.2.4.6.6.90000258.4.10"/>
            </context>
            <performer>
               <reference value="https://example.org/fhir/Practitioner/2.16.528.1.1007.3.1-900014718"/>
               <display value="Huisarts 1"/>
            </performer>
            <valueString value="Gaat beter, nog wel af en toe benauwd/hoesten. Geen koorts, weinig slijm en geen PoB."/>
         </Observation>
      </resource>
      <search>
         <mode value="include"/>
      </search>
   </entry>
   <entry>
      <fullUrl value="urn:uuid:0825ab75-dd2d-11ee-1979-020000000000"/>
      <resource>
         <Observation>
            <meta>
               <profile value="http://nictiz.nl/fhir/StructureDefinition/gp-JournalEntry"/>
            </meta>
            <text>
               <status value="extensions"/>
               <div xmlns="http://www.w3.org/1999/xhtml">
                  <table>
                     <caption>Observatie/bepaling. Subject: E. XXX_Zegers. Status: definitief
<span style="display: block;">Uitvoerende: 
<a href="https://example.org/fhir/Practitioner/2.16.528.1.1007.3.1-900014718">Huisarts 1</a>
                        </span>
                     </caption>
                     <tbody>
                        <tr>
                           <th>Context</th>
                           <td>Contact ID: 996625 2.16.840.1.113883.2.4.6.6.90000258.4.10 (Id: 996625 (urn:oid:2.16.840.1.113883.2.4.6.6.90000258.4.10))</td>
                        </tr>
                        <tr>
                           <th>Code</th>
                           <th>Waarde</th>
                        </tr>
                        <tr>
                           <td>
                              <span title="Objectief (O - http://fhir.nl/fhir/NamingSystem/journaalregeltypen)">Objectief</span>
                           </td>
                           <td>Longen VAG geen crep, piep, wel wat rhonchi. Percussie gb.</td>
                        </tr>
                     </tbody>
                  </table>
               </div>
            </text>
            <status value="final"/>
            <code>
               <coding>
                  <system value="http://fhir.nl/fhir/NamingSystem/journaalregeltypen"/>
                  <code value="O"/>
                  <display value="Objectief"/>
               </coding>
            </code>
            <subject>
               <reference value="urn:uuid:0825a17a-dd2d-11ee-1979-020000000000"/>
               <display value="E. XXX_Zegers"/>
            </subject>
            <context>
               <identifier>
                  <system value="urn:oid:2.16.840.1.113883.2.4.6.6.90000258.4.10"/>
                  <value value="996625"/>
               </identifier>
               <display value="Contact ID: 996625 2.16.840.1.113883.2.4.6.6.90000258.4.10"/>
            </context>
            <performer>
               <reference value="https://example.org/fhir/Practitioner/2.16.528.1.1007.3.1-900014718"/>
               <display value="Huisarts 1"/>
            </performer>
            <valueString value="Longen VAG geen crep, piep, wel wat rhonchi. Percussie gb."/>
         </Observation>
      </resource>
      <search>
         <mode value="include"/>
      </search>
   </entry>
   <entry>
      <fullUrl value="urn:uuid:0825ab7d-dd2d-11ee-1979-020000000000"/>
      <resource>
         <Observation>
            <meta>
               <profile value="http://nictiz.nl/fhir/StructureDefinition/gp-JournalEntry"/>
            </meta>
            <text>
               <status value="extensions"/>
               <div xmlns="http://www.w3.org/1999/xhtml">
                  <table>
                     <caption>Observatie/bepaling. Subject: E. XXX_Zegers. Status: definitief
<span style="display: block;">Uitvoerende: 
<a href="https://example.org/fhir/Practitioner/2.16.528.1.1007.3.1-900014718">Huisarts 1</a>
                        </span>
                     </caption>
                     <tbody>
                        <tr>
                           <th>Context</th>
                           <td>Contact ID: 996625 2.16.840.1.113883.2.4.6.6.90000258.4.10 (Id: 996625 (urn:oid:2.16.840.1.113883.2.4.6.6.90000258.4.10))</td>
                        </tr>
                        <tr>
                           <th>Code</th>
                           <th>Waarde</th>
                        </tr>
                        <tr>
                           <td>
                              <span title="Evaluatie (E - http://fhir.nl/fhir/NamingSystem/journaalregeltypen)">Evaluatie</span>
                           </td>
                           <td>COPD, beterend</td>
                        </tr>
                        <tr>
                           <td>
                              <span title="discharge diagnosis (DISDX - v3/ActCode)">discharge diagnosis</span>
                           </td>
                           <td>
                              <span title="Emfyseem/COPD (R95 - sid/icpc-1-nl)">Emfyseem/COPD</span>
                           </td>
                        </tr>
                     </tbody>
                  </table>
               </div>
            </text>
            <status value="final"/>
            <code>
               <coding>
                  <system value="http://fhir.nl/fhir/NamingSystem/journaalregeltypen"/>
                  <code value="E"/>
                  <display value="Evaluatie"/>
               </coding>
            </code>
            <subject>
               <reference value="urn:uuid:0825a17a-dd2d-11ee-1979-020000000000"/>
               <display value="E. XXX_Zegers"/>
            </subject>
            <context>
               <identifier>
                  <system value="urn:oid:2.16.840.1.113883.2.4.6.6.90000258.4.10"/>
                  <value value="996625"/>
               </identifier>
               <display value="Contact ID: 996625 2.16.840.1.113883.2.4.6.6.90000258.4.10"/>
            </context>
            <performer>
               <reference value="https://example.org/fhir/Practitioner/2.16.528.1.1007.3.1-900014718"/>
               <display value="Huisarts 1"/>
            </performer>
            <valueString value="COPD, beterend"/>
            <component>
               <code>
                  <coding>
                     <system value="http://hl7.org/fhir/v3/ActCode"/>
                     <code value="DISDX"/>
                     <display value="discharge diagnosis"/>
                  </coding>
               </code>
               <valueCodeableConcept>
                  <coding>
                     <system value="http://hl7.org/fhir/sid/icpc-1-nl"/>
                     <code value="R95"/>
                     <display value="Emfyseem/COPD"/>
                  </coding>
               </valueCodeableConcept>
            </component>
         </Observation>
      </resource>
      <search>
         <mode value="include"/>
      </search>
   </entry>
   <entry>
      <fullUrl value="urn:uuid:0825ab94-dd2d-11ee-1979-020000000000"/>
      <resource>
         <Observation>
            <meta>
               <profile value="http://nictiz.nl/fhir/StructureDefinition/gp-JournalEntry"/>
            </meta>
            <text>
               <status value="extensions"/>
               <div xmlns="http://www.w3.org/1999/xhtml">
                  <table>
                     <caption>Observatie/bepaling. Subject: E. XXX_Zegers. Status: definitief
<span style="display: block;">Uitvoerende: 
<a href="https://example.org/fhir/Practitioner/2.16.528.1.1007.3.1-900014718">Huisarts 1</a>
                        </span>
                     </caption>
                     <tbody>
                        <tr>
                           <th>Context</th>
                           <td>Contact ID: 996625 2.16.840.1.113883.2.4.6.6.90000258.4.10 (Id: 996625 (urn:oid:2.16.840.1.113883.2.4.6.6.90000258.4.10))</td>
                        </tr>
                        <tr>
                           <th>Code</th>
                           <th>Waarde</th>
                        </tr>
                        <tr>
                           <td>
                              <span title="Plan (P - http://fhir.nl/fhir/NamingSystem/journaalregeltypen)">Plan</span>
                           </td>
                           <td>Controle afspreken POH voor ketenzorg en blaastest, continueren flixotide, zn ventolin.</td>
                        </tr>
                     </tbody>
                  </table>
               </div>
            </text>
            <status value="final"/>
            <code>
               <coding>
                  <system value="http://fhir.nl/fhir/NamingSystem/journaalregeltypen"/>
                  <code value="P"/>
                  <display value="Plan"/>
               </coding>
            </code>
            <subject>
               <reference value="urn:uuid:0825a17a-dd2d-11ee-1979-020000000000"/>
               <display value="E. XXX_Zegers"/>
            </subject>
            <context>
               <identifier>
                  <system value="urn:oid:2.16.840.1.113883.2.4.6.6.90000258.4.10"/>
                  <value value="996625"/>
               </identifier>
               <display value="Contact ID: 996625 2.16.840.1.113883.2.4.6.6.90000258.4.10"/>
            </context>
            <performer>
               <reference value="https://example.org/fhir/Practitioner/2.16.528.1.1007.3.1-900014718"/>
               <display value="Huisarts 1"/>
            </performer>
            <valueString value="Controle afspreken POH voor ketenzorg en blaastest, continueren flixotide, zn ventolin."/>
         </Observation>
      </resource>
      <search>
         <mode value="include"/>
      </search>
   </entry>
   <entry>
      <fullUrl value="urn:uuid:0825abdc-dd2d-11ee-1979-020000000000"/>
      <resource>
         <Observation>
            <meta>
               <profile value="http://nictiz.nl/fhir/StructureDefinition/gp-JournalEntry"/>
            </meta>
            <text>
               <status value="extensions"/>
               <div xmlns="http://www.w3.org/1999/xhtml">
                  <table>
                     <caption>Observatie/bepaling. Subject: E. XXX_Zegers. Status: definitief
<span style="display: block;">Uitvoerende: 
<a href="https://example.org/fhir/Practitioner/2.16.528.1.1007.3.1-900014718">Huisarts 1</a>
                        </span>
                     </caption>
                     <tbody>
                        <tr>
                           <th>Context</th>
                           <td>Contact ID: 996626 2.16.840.1.113883.2.4.6.6.90000258.4.10 (Id: 996626 (urn:oid:2.16.840.1.113883.2.4.6.6.90000258.4.10))</td>
                        </tr>
                        <tr>
                           <th>Code</th>
                           <th>Waarde</th>
                        </tr>
                        <tr>
                           <td>
                              <span title="Subjectief (S - http://fhir.nl/fhir/NamingSystem/journaalregeltypen)">Subjectief</span>
                           </td>
                           <td>Gaat slechter. Medicatie slaat niet aan aldus pat. Koorts-. Hoest+++. Slijm geel.</td>
                        </tr>
                     </tbody>
                  </table>
               </div>
            </text>
            <status value="final"/>
            <code>
               <coding>
                  <system value="http://fhir.nl/fhir/NamingSystem/journaalregeltypen"/>
                  <code value="S"/>
                  <display value="Subjectief"/>
               </coding>
            </code>
            <subject>
               <reference value="urn:uuid:0825a17a-dd2d-11ee-1979-020000000000"/>
               <display value="E. XXX_Zegers"/>
            </subject>
            <context>
               <identifier>
                  <system value="urn:oid:2.16.840.1.113883.2.4.6.6.90000258.4.10"/>
                  <value value="996626"/>
               </identifier>
               <display value="Contact ID: 996626 2.16.840.1.113883.2.4.6.6.90000258.4.10"/>
            </context>
            <performer>
               <reference value="https://example.org/fhir/Practitioner/2.16.528.1.1007.3.1-900014718"/>
               <display value="Huisarts 1"/>
            </performer>
            <valueString value="Gaat slechter. Medicatie slaat niet aan aldus pat. Koorts-. Hoest+++. Slijm geel."/>
         </Observation>
      </resource>
      <search>
         <mode value="include"/>
      </search>
   </entry>
   <entry>
      <fullUrl value="urn:uuid:0825abe3-dd2d-11ee-1979-020000000000"/>
      <resource>
         <Observation>
            <meta>
               <profile value="http://nictiz.nl/fhir/StructureDefinition/gp-JournalEntry"/>
            </meta>
            <text>
               <status value="extensions"/>
               <div xmlns="http://www.w3.org/1999/xhtml">
                  <table>
                     <caption>Observatie/bepaling. Subject: E. XXX_Zegers. Status: definitief
<span style="display: block;">Uitvoerende: 
<a href="https://example.org/fhir/Practitioner/2.16.528.1.1007.3.1-900014718">Huisarts 1</a>
                        </span>
                     </caption>
                     <tbody>
                        <tr>
                           <th>Context</th>
                           <td>Contact ID: 996626 2.16.840.1.113883.2.4.6.6.90000258.4.10 (Id: 996626 (urn:oid:2.16.840.1.113883.2.4.6.6.90000258.4.10))</td>
                        </tr>
                        <tr>
                           <th>Code</th>
                           <th>Waarde</th>
                        </tr>
                        <tr>
                           <td>
                              <span title="Objectief (O - http://fhir.nl/fhir/NamingSystem/journaalregeltypen)">Objectief</span>
                           </td>
                           <td>Longen VAG crep+, piep iets, rhonchi+.  Percussie gb.</td>
                        </tr>
                     </tbody>
                  </table>
               </div>
            </text>
            <status value="final"/>
            <code>
               <coding>
                  <system value="http://fhir.nl/fhir/NamingSystem/journaalregeltypen"/>
                  <code value="O"/>
                  <display value="Objectief"/>
               </coding>
            </code>
            <subject>
               <reference value="urn:uuid:0825a17a-dd2d-11ee-1979-020000000000"/>
               <display value="E. XXX_Zegers"/>
            </subject>
            <context>
               <identifier>
                  <system value="urn:oid:2.16.840.1.113883.2.4.6.6.90000258.4.10"/>
                  <value value="996626"/>
               </identifier>
               <display value="Contact ID: 996626 2.16.840.1.113883.2.4.6.6.90000258.4.10"/>
            </context>
            <performer>
               <reference value="https://example.org/fhir/Practitioner/2.16.528.1.1007.3.1-900014718"/>
               <display value="Huisarts 1"/>
            </performer>
            <valueString value="Longen VAG crep+, piep iets, rhonchi+.  Percussie gb."/>
         </Observation>
      </resource>
      <search>
         <mode value="include"/>
      </search>
   </entry>
   <entry>
      <fullUrl value="urn:uuid:0825abeb-dd2d-11ee-1979-020000000000"/>
      <resource>
         <Observation>
            <meta>
               <profile value="http://nictiz.nl/fhir/StructureDefinition/gp-JournalEntry"/>
            </meta>
            <text>
               <status value="extensions"/>
               <div xmlns="http://www.w3.org/1999/xhtml">
                  <table>
                     <caption>Observatie/bepaling. Subject: E. XXX_Zegers. Status: definitief
<span style="display: block;">Uitvoerende: 
<a href="https://example.org/fhir/Practitioner/2.16.528.1.1007.3.1-900014718">Huisarts 1</a>
                        </span>
                     </caption>
                     <tbody>
                        <tr>
                           <th>Context</th>
                           <td>Contact ID: 996626 2.16.840.1.113883.2.4.6.6.90000258.4.10 (Id: 996626 (urn:oid:2.16.840.1.113883.2.4.6.6.90000258.4.10))</td>
                        </tr>
                        <tr>
                           <th>Code</th>
                           <th>Waarde</th>
                        </tr>
                        <tr>
                           <td>
                              <span title="Evaluatie (E - http://fhir.nl/fhir/NamingSystem/journaalregeltypen)">Evaluatie</span>
                           </td>
                           <td>COPD, exacerbatie</td>
                        </tr>
                        <tr>
                           <td>
                              <span title="discharge diagnosis (DISDX - v3/ActCode)">discharge diagnosis</span>
                           </td>
                           <td>
                              <span title="Emfyseem/COPD (R95 - sid/icpc-1-nl)">Emfyseem/COPD</span>
                           </td>
                        </tr>
                     </tbody>
                  </table>
               </div>
            </text>
            <status value="final"/>
            <code>
               <coding>
                  <system value="http://fhir.nl/fhir/NamingSystem/journaalregeltypen"/>
                  <code value="E"/>
                  <display value="Evaluatie"/>
               </coding>
            </code>
            <subject>
               <reference value="urn:uuid:0825a17a-dd2d-11ee-1979-020000000000"/>
               <display value="E. XXX_Zegers"/>
            </subject>
            <context>
               <identifier>
                  <system value="urn:oid:2.16.840.1.113883.2.4.6.6.90000258.4.10"/>
                  <value value="996626"/>
               </identifier>
               <display value="Contact ID: 996626 2.16.840.1.113883.2.4.6.6.90000258.4.10"/>
            </context>
            <performer>
               <reference value="https://example.org/fhir/Practitioner/2.16.528.1.1007.3.1-900014718"/>
               <display value="Huisarts 1"/>
            </performer>
            <valueString value="COPD, exacerbatie"/>
            <component>
               <code>
                  <coding>
                     <system value="http://hl7.org/fhir/v3/ActCode"/>
                     <code value="DISDX"/>
                     <display value="discharge diagnosis"/>
                  </coding>
               </code>
               <valueCodeableConcept>
                  <coding>
                     <system value="http://hl7.org/fhir/sid/icpc-1-nl"/>
                     <code value="R95"/>
                     <display value="Emfyseem/COPD"/>
                  </coding>
               </valueCodeableConcept>
            </component>
         </Observation>
      </resource>
      <search>
         <mode value="include"/>
      </search>
   </entry>
   <entry>
      <fullUrl value="urn:uuid:0825ac02-dd2d-11ee-1979-020000000000"/>
      <resource>
         <Observation>
            <meta>
               <profile value="http://nictiz.nl/fhir/StructureDefinition/gp-JournalEntry"/>
            </meta>
            <text>
               <status value="extensions"/>
               <div xmlns="http://www.w3.org/1999/xhtml">
                  <table>
                     <caption>Observatie/bepaling. Subject: E. XXX_Zegers. Status: definitief
<span style="display: block;">Uitvoerende: 
<a href="https://example.org/fhir/Practitioner/2.16.528.1.1007.3.1-900014718">Huisarts 1</a>
                        </span>
                     </caption>
                     <tbody>
                        <tr>
                           <th>Context</th>
                           <td>Contact ID: 996626 2.16.840.1.113883.2.4.6.6.90000258.4.10 (Id: 996626 (urn:oid:2.16.840.1.113883.2.4.6.6.90000258.4.10))</td>
                        </tr>
                        <tr>
                           <th>Code</th>
                           <th>Waarde</th>
                        </tr>
                        <tr>
                           <td>
                              <span title="Plan (P - http://fhir.nl/fhir/NamingSystem/journaalregeltypen)">Plan</span>
                           </td>
                           <td>AB starten, ventolin 3-4 dgs.</td>
                        </tr>
                     </tbody>
                  </table>
               </div>
            </text>
            <status value="final"/>
            <code>
               <coding>
                  <system value="http://fhir.nl/fhir/NamingSystem/journaalregeltypen"/>
                  <code value="P"/>
                  <display value="Plan"/>
               </coding>
            </code>
            <subject>
               <reference value="urn:uuid:0825a17a-dd2d-11ee-1979-020000000000"/>
               <display value="E. XXX_Zegers"/>
            </subject>
            <context>
               <identifier>
                  <system value="urn:oid:2.16.840.1.113883.2.4.6.6.90000258.4.10"/>
                  <value value="996626"/>
               </identifier>
               <display value="Contact ID: 996626 2.16.840.1.113883.2.4.6.6.90000258.4.10"/>
            </context>
            <performer>
               <reference value="https://example.org/fhir/Practitioner/2.16.528.1.1007.3.1-900014718"/>
               <display value="Huisarts 1"/>
            </performer>
            <valueString value="AB starten, ventolin 3-4 dgs."/>
         </Observation>
      </resource>
      <search>
         <mode value="include"/>
      </search>
   </entry>
</Bundle>